FFT Profile of Model Wake,,,
,,,
q Corr Factor,0.95,,
,,,
Atm Press [Pa],99700,,
,,,
Atm Temp [C],21.5,,
,,,
Density [kg/m^3],1.18,,
,,,
Average Tunnel Velocity [m/s],15.087,,
,,,
Streamwise location [mm],66.7,,NOTE:  has been corrected
,,,
Lateral location [mm],14,,
,,,
,,,
Frequency [Hz], FFT Amplitude [Vrms],,
0,10.533,,
7.812,7.454,,
15.625,0.439,,
23.437,0.397,,
31.25,0.403,,
39.062,0.387,,
46.875,0.379,,
54.687,0.376,,
62.5,0.349,,
70.312,0.343,,
78.125,0.349,,
85.937,0.324,,
93.75,0.313,,
101.562,0.346,,
109.375,0.375,,
117.187,0.366,,
125,0.43,,
132.812,0.845,,
140.625,1.91,,
148.437,1.642,,
156.25,0.589,,
164.062,0.359,,
171.875,0.352,,
179.687,0.316,,
187.5,0.284,,
195.312,0.236,,
203.125,0.248,,
210.937,0.254,,
218.75,0.284,,
226.562,0.255,,
234.375,0.236,,
242.187,0.248,,
250,0.25,,
257.812,0.254,,
265.625,0.25,,
273.437,0.259,,
281.25,0.293,,
289.062,0.262,,
296.875,0.242,,
304.687,0.253,,
312.5,0.222,,
320.312,0.202,,
328.125,0.206,,
335.937,0.192,,
343.75,0.189,,
351.562,0.183,,
359.375,0.206,,
367.187,0.22,,
375,0.194,,
382.812,0.186,,
390.625,0.19,,
398.437,0.19,,
406.25,0.182,,
414.062,0.189,,
421.875,0.224,,
429.687,0.202,,
437.5,0.207,,
445.312,0.198,,
453.125,0.161,,
460.937,0.152,,
468.75,0.181,,
476.562,0.173,,
484.375,0.159,,
492.187,0.143,,
500,0.139,,
507.812,0.156,,
515.625,0.175,,
523.437,0.15,,
531.25,0.156,,
539.062,0.146,,
546.875,0.142,,
554.687,0.143,,
562.5,0.138,,
570.312,0.144,,
578.125,0.146,,
585.937,0.154,,
593.75,0.131,,
601.562,0.121,,
609.375,0.125,,
617.187,0.134,,
625,0.132,,
632.812,0.134,,
640.625,0.124,,
648.437,0.128,,
656.25,0.136,,
664.062,0.121,,
671.875,0.113,,
679.687,0.122,,
687.5,0.121,,
695.312,0.116,,
703.125,0.122,,
710.937,0.13,,
718.75,0.11,,
726.562,0.124,,
734.375,0.14,,
742.187,0.122,,
750,0.117,,
757.812,0.114,,
765.625,0.108,,
773.437,0.106,,
781.25,0.121,,
789.062,0.121,,
796.875,0.121,,
804.687,0.117,,
812.5,0.111,,
820.312,0.103,,
828.125,0.101,,
835.937,0.105,,
843.75,0.104,,
851.562,0.094,,
859.375,0.097,,
867.187,0.098,,
875,0.109,,
882.812,0.11,,
890.625,0.101,,
898.437,0.1,,
906.25,0.094,,
914.062,0.096,,
921.875,0.098,,
929.687,0.098,,
937.5,0.092,,
945.312,0.082,,
953.125,0.102,,
960.937,0.1,,
968.75,0.087,,
976.562,0.089,,
984.375,0.095,,
992.187,0.099,,
1000,0.084,,
1007.812,0.083,,
1015.625,0.086,,
1023.437,0.087,,
1031.25,0.083,,
1039.062,0.086,,
1046.875,0.086,,
1054.687,0.091,,
1062.5,0.089,,
1070.312,0.086,,
1078.125,0.085,,
1085.937,0.093,,
1093.75,0.094,,
1101.562,0.091,,
1109.375,0.086,,
1117.187,0.082,,
1125,0.087,,
1132.812,0.08,,
1140.625,0.079,,
1148.437,0.08,,
1156.25,0.081,,
1164.062,0.079,,
1171.875,0.087,,
1179.687,0.077,,
1187.5,0.072,,
1195.312,0.07,,
1203.125,0.073,,
1210.937,0.077,,
1218.75,0.081,,
1226.562,0.083,,
1234.375,0.083,,
1242.187,0.081,,
1250,0.081,,
1257.812,0.075,,
1265.625,0.072,,
1273.437,0.067,,
1281.25,0.075,,
1289.062,0.073,,
1296.875,0.075,,
1304.687,0.071,,
1312.5,0.071,,
1320.312,0.069,,
1328.125,0.069,,
1335.937,0.064,,
1343.75,0.075,,
1351.562,0.078,,
1359.375,0.068,,
1367.187,0.066,,
1375,0.062,,
1382.812,0.057,,
1390.625,0.062,,
1398.437,0.063,,
1406.25,0.061,,
1414.062,0.062,,
1421.875,0.068,,
1429.687,0.066,,
1437.5,0.066,,
1445.312,0.064,,
1453.125,0.065,,
1460.937,0.065,,
1468.75,0.07,,
1476.562,0.068,,
1484.375,0.063,,
1492.187,0.061,,
1500,0.065,,
1507.812,0.063,,
1515.625,0.062,,
1523.437,0.053,,
1531.25,0.05,,
1539.062,0.063,,
1546.875,0.065,,
1554.687,0.055,,
1562.5,0.056,,
1570.312,0.064,,
1578.125,0.068,,
1585.937,0.068,,
1593.75,0.063,,
1601.562,0.056,,
1609.375,0.061,,
1617.187,0.058,,
1625,0.058,,
1632.812,0.061,,
1640.625,0.053,,
1648.437,0.05,,
1656.25,0.053,,
1664.062,0.055,,
1671.875,0.057,,
1679.687,0.057,,
1687.5,0.058,,
1695.312,0.054,,
1703.125,0.049,,
1710.937,0.054,,
1718.75,0.058,,
1726.562,0.059,,
1734.375,0.057,,
1742.187,0.051,,
1750,0.05,,
1757.812,0.048,,
1765.625,0.05,,
1773.437,0.054,,
1781.25,0.056,,
1789.062,0.057,,
1796.875,0.052,,
1804.687,0.05,,
1812.5,0.056,,
1820.312,0.054,,
1828.125,0.052,,
1835.937,0.049,,
1843.75,0.044,,
1851.562,0.047,,
1859.375,0.051,,
1867.187,0.049,,
1875,0.053,,
1882.812,0.049,,
1890.625,0.044,,
1898.437,0.042,,
1906.25,0.051,,
1914.062,0.054,,
1921.875,0.05,,
1929.687,0.047,,
1937.5,0.046,,
1945.312,0.049,,
1953.125,0.051,,
1960.937,0.049,,
1968.75,0.045,,
1976.562,0.046,,
1984.375,0.047,,
1992.187,0.051,,
2000,0.052,,
2007.812,0.051,,
2015.625,0.051,,
2023.437,0.045,,
2031.25,0.049,,
2039.062,0.052,,
2046.875,0.049,,
2054.687,0.046,,
2062.5,0.053,,
2070.312,0.047,,
2078.125,0.044,,
2085.937,0.049,,
2093.75,0.046,,
2101.562,0.041,,
2109.375,0.041,,
2117.187,0.043,,
2125,0.043,,
2132.812,0.042,,
2140.625,0.043,,
2148.437,0.045,,
2156.25,0.048,,
2164.062,0.049,,
2171.875,0.042,,
2179.687,0.041,,
2187.5,0.046,,
2195.312,0.042,,
2203.125,0.044,,
2210.937,0.045,,
2218.75,0.043,,
2226.562,0.042,,
2234.375,0.044,,
2242.187,0.048,,
2250,0.046,,
2257.812,0.042,,
2265.625,0.041,,
2273.437,0.042,,
2281.25,0.046,,
2289.062,0.046,,
2296.875,0.043,,
2304.687,0.038,,
2312.5,0.038,,
2320.312,0.044,,
2328.125,0.041,,
2335.937,0.039,,
2343.75,0.038,,
2351.562,0.039,,
2359.375,0.042,,
2367.187,0.046,,
2375,0.045,,
2382.812,0.043,,
2390.625,0.043,,
2398.437,0.04,,
2406.25,0.039,,
2414.062,0.044,,
2421.875,0.045,,
2429.687,0.044,,
2437.5,0.04,,
2445.312,0.033,,
2453.125,0.035,,
2460.937,0.039,,
2468.75,0.041,,
2476.562,0.036,,
2484.375,0.038,,
2492.187,0.041,,
2500,0.044,,
2507.812,0.046,,
2515.625,0.043,,
2523.437,0.039,,
2531.25,0.038,,
2539.062,0.04,,
2546.875,0.035,,
2554.687,0.037,,
2562.5,0.039,,
2570.312,0.04,,
2578.125,0.036,,
2585.937,0.035,,
2593.75,0.034,,
2601.562,0.031,,
2609.375,0.033,,
2617.187,0.031,,
2625,0.032,,
2632.812,0.037,,
2640.625,0.042,,
2648.437,0.044,,
2656.25,0.039,,
2664.062,0.034,,
2671.875,0.034,,
2679.687,0.04,,
2687.5,0.033,,
2695.312,0.04,,
2703.125,0.039,,
2710.937,0.038,,
2718.75,0.039,,
2726.562,0.037,,
2734.375,0.034,,
2742.187,0.034,,
2750,0.036,,
2757.812,0.041,,
2765.625,0.038,,
2773.437,0.032,,
2781.25,0.035,,
2789.062,0.035,,
2796.875,0.035,,
2804.687,0.034,,
2812.5,0.032,,
2820.312,0.036,,
2828.125,0.037,,
2835.937,0.037,,
2843.75,0.04,,
2851.562,0.041,,
2859.375,0.039,,
2867.187,0.036,,
2875,0.034,,
2882.812,0.033,,
2890.625,0.032,,
2898.437,0.037,,
2906.25,0.037,,
2914.062,0.036,,
2921.875,0.033,,
2929.687,0.03,,
2937.5,0.034,,
2945.312,0.033,,
2953.125,0.032,,
2960.937,0.033,,
2968.75,0.032,,
2976.562,0.034,,
2984.375,0.037,,
2992.187,0.039,,
3000,0.04,,
3007.812,0.035,,
3015.625,0.032,,
3023.437,0.031,,
3031.25,0.029,,
3039.062,0.031,,
3046.875,0.032,,
3054.687,0.034,,
3062.5,0.032,,
3070.312,0.031,,
3078.125,0.032,,
3085.937,0.034,,
3093.75,0.033,,
3101.562,0.029,,
3109.375,0.03,,
3117.187,0.032,,
3125,0.03,,
3132.812,0.031,,
3140.625,0.034,,
3148.437,0.031,,
3156.25,0.027,,
3164.062,0.029,,
3171.875,0.033,,
3179.687,0.035,,
3187.5,0.032,,
3195.312,0.031,,
3203.125,0.031,,
3210.937,0.031,,
3218.75,0.032,,
3226.562,0.03,,
3234.375,0.034,,
3242.187,0.033,,
3250,0.034,,
3257.812,0.032,,
3265.625,0.031,,
3273.437,0.034,,
3281.25,0.034,,
3289.062,0.032,,
3296.875,0.026,,
3304.687,0.03,,
3312.5,0.033,,
3320.312,0.03,,
3328.125,0.032,,
3335.937,0.031,,
3343.75,0.028,,
3351.562,0.029,,
3359.375,0.031,,
3367.187,0.03,,
3375,0.033,,
3382.812,0.032,,
3390.625,0.031,,
3398.437,0.033,,
3406.25,0.033,,
3414.062,0.033,,
3421.875,0.032,,
3429.687,0.035,,
3437.5,0.03,,
3445.312,0.029,,
3453.125,0.032,,
3460.937,0.032,,
3468.75,0.032,,
3476.562,0.032,,
3484.375,0.033,,
3492.187,0.034,,
3500,0.034,,
3507.812,0.032,,
3515.625,0.031,,
3523.437,0.03,,
3531.25,0.031,,
3539.062,0.029,,
3546.875,0.028,,
3554.687,0.029,,
3562.5,0.027,,
3570.312,0.028,,
3578.125,0.027,,
3585.937,0.027,,
3593.75,0.03,,
3601.562,0.026,,
3609.375,0.027,,
3617.187,0.028,,
3625,0.027,,
3632.812,0.028,,
3640.625,0.026,,
3648.437,0.029,,
3656.25,0.031,,
3664.062,0.032,,
3671.875,0.028,,
3679.687,0.03,,
3687.5,0.03,,
3695.312,0.033,,
3703.125,0.03,,
3710.937,0.032,,
3718.75,0.03,,
3726.562,0.028,,
3734.375,0.026,,
3742.187,0.024,,
3750,0.027,,
3757.812,0.029,,
3765.625,0.027,,
3773.437,0.027,,
3781.25,0.029,,
3789.062,0.029,,
3796.875,0.031,,
3804.687,0.03,,
3812.5,0.03,,
3820.312,0.029,,
3828.125,0.03,,
3835.937,0.033,,
3843.75,0.031,,
3851.562,0.028,,
3859.375,0.029,,
3867.187,0.027,,
3875,0.025,,
3882.812,0.026,,
3890.625,0.027,,
3898.437,0.03,,
3906.25,0.029,,
3914.062,0.028,,
3921.875,0.026,,
3929.687,0.027,,
3937.5,0.03,,
3945.312,0.029,,
3953.125,0.027,,
3960.937,0.028,,
3968.75,0.027,,
3976.562,0.029,,
3984.375,0.029,,
3992.187,0.027,,
